 Kr Pressure=30. Path=1. cm
 Photon Energy (eV), Transmission
    10.000       1.0000    
    10.380       1.0000    
    10.760       1.0000    
    11.140       1.0000    
    11.520       1.0000    
    11.900       1.0000    
    12.280       1.0000    
    12.660       1.0000    
    13.040       1.0000    
    13.420       1.0000    
    13.800       1.0000    
    14.180      0.39727    
    14.560      0.22993E-14
    14.940      0.16839E-15
    15.320      0.17458E-16
    15.700      0.43866E-17
    16.080      0.14715E-17
    16.460      0.66003E-18
    16.840      0.60947E-18
    17.220      0.56362E-18
    17.600      0.10038E-17
    17.980      0.22664E-17
    18.360      0.48659E-17
    18.740      0.89674E-17
    19.120      0.15965E-16
    19.500      0.28098E-16
    19.880      0.50704E-16
    20.260      0.91156E-16
    20.640      0.16137E-15
    21.020      0.29415E-15
    21.400      0.56081E-15
    21.780      0.10452E-14
    22.160      0.19064E-14
    22.540      0.36193E-14
    22.920      0.78432E-14
    23.300      0.17451E-13
    23.680      0.37603E-13
    24.060      0.79812E-13
    24.440      0.22000E-12
    24.820      0.64373E-12
    25.200      0.17829E-11
    25.580      0.46907E-11
    25.960      0.11761E-10
    26.340      0.28190E-10
    26.720      0.64773E-10
    27.100      0.14333E-09
    27.480      0.30872E-09
    27.860      0.67118E-09
    28.240      0.14055E-08
    28.620      0.28413E-08
    29.000      0.61299E-08
    29.380      0.14657E-07
    29.760      0.36082E-07
    30.140      0.84024E-07
    30.520      0.18583E-06
    30.900      0.39184E-06
    31.280      0.79041E-06
    31.660      0.15297E-05
    32.040      0.28496E-05
    32.420      0.51217E-05
    32.800      0.89037E-05
    33.180      0.15005E-04
    33.560      0.24565E-04
    33.940      0.39239E-04
    34.320      0.61563E-04
    34.700      0.99176E-04
    35.080      0.15730E-03
    35.460      0.24268E-03
    35.840      0.36489E-03
    36.220      0.53565E-03
    36.600      0.76895E-03
    36.980      0.10811E-02
    37.360      0.14907E-02
    37.740      0.20186E-02
    38.120      0.26874E-02
    38.500      0.35216E-02
    38.880      0.45469E-02
    39.260      0.57899E-02
    39.640      0.72775E-02
    40.020      0.90363E-02
    40.400      0.11092E-01
    40.780      0.13471E-01
    41.160      0.16197E-01
    41.540      0.19290E-01
    41.920      0.22878E-01
    42.300      0.26988E-01
    42.680      0.31569E-01
    43.060      0.36630E-01
    43.440      0.42179E-01
    43.820      0.48222E-01
    44.200      0.54761E-01
    44.580      0.61792E-01
    44.960      0.69310E-01
    45.340      0.77305E-01
    45.720      0.85765E-01
    46.100      0.94675E-01
    46.480      0.10402    
    46.860      0.11377    
    47.240      0.12391    
    47.620      0.13441    
    48.000      0.14526    
    48.380      0.15642    
    48.760      0.16787    
    49.140      0.17958    
    49.520      0.19153    
    49.900      0.20337    
    50.280      0.21489    
    50.660      0.22648    
    51.040      0.23799    
    51.420      0.24958    
    51.800      0.26125    
    52.180      0.27295    
    52.560      0.28469    
    52.940      0.29645    
    53.320      0.30820    
    53.700      0.31993    
    54.080      0.33164    
    54.460      0.34330    
    54.840      0.35491    
    55.220      0.36644    
    55.600      0.37791    
    55.980      0.38873    
    56.360      0.39934    
    56.740      0.40879    
    57.120      0.41686    
    57.500      0.42486    
    57.880      0.43278    
    58.260      0.44062    
    58.640      0.44838    
    59.020      0.45606    
    59.400      0.46366    
    59.780      0.47117    
    60.160      0.47859    
    60.540      0.48487    
    60.920      0.49036    
    61.300      0.49576    
    61.680      0.49984    
    62.060      0.50389    
    62.440      0.50789    
    62.820      0.51186    
    63.200      0.51578    
    63.580      0.51967    
    63.960      0.52352    
    64.340      0.52733    
    64.720      0.53104    
    65.100      0.53472    
    65.480      0.53815    
    65.860      0.54110    
    66.240      0.54402    
    66.620      0.54692    
    67.000      0.54979    
    67.380      0.55264    
    67.760      0.55546    
    68.140      0.55825    
    68.520      0.56102    
    68.900      0.56292    
    69.280      0.56465    
    69.660      0.56637    
    70.040      0.56796    
    70.420      0.56953    
    70.800      0.57108    
    71.180      0.57263    
    71.560      0.57416    
    71.940      0.57569    
    72.320      0.57688    
    72.700      0.57804    
    73.080      0.57920    
    73.460      0.58022    
    73.840      0.58121    
    74.220      0.58220    
    74.600      0.58318    
    74.980      0.58415    
    75.360      0.58512    
    75.740      0.58608    
    76.120      0.58704    
    76.500      0.58799    
    76.880      0.58874    
    77.260      0.58919    
    77.640      0.58965    
    78.020      0.59004    
    78.400      0.59009    
    78.780      0.59013    
    79.160      0.59017    
    79.540      0.59021    
    79.920      0.59025    
    80.300      0.59029    
    80.680      0.59012    
    81.060      0.58968    
    81.440      0.58924    
    81.820      0.58880    
    82.200      0.58792    
    82.580      0.58703    
    82.960      0.58615    
    83.340      0.58527    
    83.720      0.58440    
    84.100      0.58352    
    84.480      0.58265    
    84.860      0.58179    
    85.240      0.58092    
    85.620      0.58006    
    86.000      0.57916    
    86.380      0.57819    
    86.760      0.57722    
    87.140      0.57626    
    87.520      0.57476    
    87.900      0.57307    
    88.280      0.57139    
    88.660      0.56920    
    89.040      0.54998    
    89.420      0.53038    
    89.800      0.51044    
    90.180      0.45123    
    90.560      0.27448    
    90.940      0.12290    
    91.320      0.33632E-01
    91.700      0.86286E-02
    92.080      0.41784E-02
    92.460      0.18182E-02
    92.840      0.70021E-03
    93.220      0.23456E-03
    93.600      0.67004E-04
    93.980      0.53330E-02
    94.360      0.68562E-02
    94.740      0.87006E-02
    95.120      0.10906E-01
    95.500      0.13513E-01
    95.880      0.16561E-01
    96.260      0.20087E-01
    96.640      0.24127E-01
    97.020      0.28711E-01
    97.400      0.33869E-01
    97.780      0.39624E-01
    98.160      0.45995E-01
    98.540      0.52995E-01
    98.920      0.60632E-01
    99.300      0.70488E-01
    99.680      0.85328E-01
    100.06      0.10181    
    100.44      0.11988    
    100.82      0.13844    
    101.20      0.14604    
    101.58      0.15381    
    101.96      0.16174    
    102.34      0.16981    
    102.72      0.17803    
    103.10      0.18637    
    103.48      0.19484    
    103.86      0.20342    
    104.24      0.21211    
    104.62      0.22089    
    105.00      0.22976    
    105.38      0.23871    
    105.76      0.24773    
    106.14      0.24408    
    106.52      0.24045    
    106.90      0.23685    
    107.28      0.23328    
    107.66      0.22874    
    108.04      0.22325    
    108.42      0.21782    
    108.80      0.21245    
    109.18      0.20715    
    109.56      0.20192    
    109.94      0.19675    
    110.32      0.19165    
    110.70      0.18663    
    111.08      0.18167    
    111.46      0.17679    
    111.84      0.17198    
    112.22      0.16725    
    112.60      0.16259    
    112.98      0.15800    
    113.36      0.15349    
    113.74      0.14905    
    114.12      0.14469    
    114.50      0.14041    
    114.88      0.13620    
    115.26      0.13208    
    115.64      0.12803    
    116.02      0.12406    
    116.40      0.12016    
    116.78      0.11634    
    117.16      0.11260    
    117.54      0.10894    
    117.92      0.10536    
    118.30      0.10185    
    118.68      0.98665E-01
    119.06      0.95570E-01
    119.44      0.92541E-01
    119.82      0.89578E-01
    120.20      0.86680E-01
    120.58      0.83961E-01
    120.96      0.81318E-01
    121.34      0.78733E-01
    121.72      0.76206E-01
    122.10      0.73737E-01
    122.48      0.71325E-01
    122.86      0.68970E-01
    123.24      0.66671E-01
    123.62      0.64428E-01
    124.00      0.62240E-01
    124.38      0.60107E-01
    124.76      0.58029E-01
    125.14      0.56004E-01
    125.52      0.54032E-01
    125.90      0.52112E-01
    126.28      0.50363E-01
    126.66      0.48965E-01
    127.04      0.47598E-01
    127.42      0.46261E-01
    127.80      0.44953E-01
    128.18      0.43675E-01
    128.56      0.42547E-01
    128.94      0.41454E-01
    129.32      0.40384E-01
    129.70      0.39336E-01
    130.08      0.38310E-01
    130.46      0.37306E-01
    130.84      0.36323E-01
    131.22      0.35361E-01
    131.60      0.34420E-01
    131.98      0.33499E-01
    132.36      0.32598E-01
    132.74      0.31717E-01
    133.12      0.30855E-01
    133.50      0.30012E-01
    133.88      0.29188E-01
    134.26      0.28383E-01
    134.64      0.27596E-01
    135.02      0.26828E-01
    135.40      0.26077E-01
    135.78      0.25343E-01
    136.16      0.24627E-01
    136.54      0.23927E-01
    136.92      0.23298E-01
    137.30      0.22729E-01
    137.68      0.22171E-01
    138.06      0.21625E-01
    138.44      0.21091E-01
    138.82      0.20568E-01
    139.20      0.20188E-01
    139.58      0.19866E-01
    139.96      0.19548E-01
    140.34      0.19235E-01
    140.72      0.18926E-01
    141.10      0.18622E-01
    141.48      0.18322E-01
    141.86      0.18027E-01
    142.24      0.17736E-01
    142.62      0.17450E-01
    143.00      0.17168E-01
    143.38      0.16890E-01
    143.76      0.16616E-01
    144.14      0.16346E-01
    144.52      0.16080E-01
    144.90      0.15818E-01
    145.28      0.15560E-01
    145.66      0.15306E-01
    146.04      0.15055E-01
    146.42      0.14809E-01
    146.80      0.14566E-01
    147.18      0.14327E-01
    147.56      0.14092E-01
    147.94      0.13860E-01
    148.32      0.13631E-01
    148.70      0.13406E-01
    149.08      0.13185E-01
    149.46      0.12967E-01
    149.84      0.12752E-01
    150.22      0.12540E-01
    150.60      0.12332E-01
    150.98      0.12127E-01
    151.36      0.11925E-01
    151.74      0.11726E-01
    152.12      0.11530E-01
    152.50      0.11337E-01
    152.88      0.11147E-01
    153.26      0.11014E-01
    153.64      0.10897E-01
    154.02      0.10781E-01
    154.40      0.10667E-01
    154.78      0.10554E-01
    155.16      0.10442E-01
    155.54      0.10334E-01
    155.92      0.10238E-01
    156.30      0.10143E-01
    156.68      0.10049E-01
    157.06      0.99561E-02
    157.44      0.98638E-02
    157.82      0.97723E-02
    158.20      0.96817E-02
    158.58      0.95920E-02
    158.96      0.95031E-02
    159.34      0.94151E-02
    159.72      0.93279E-02
    160.10      0.92415E-02
    160.48      0.91560E-02
    160.86      0.90714E-02
    161.24      0.89876E-02
    161.62      0.89046E-02
    162.00      0.88224E-02
    162.38      0.87410E-02
    162.76      0.86603E-02
    163.14      0.85805E-02
    163.52      0.85015E-02
    163.90      0.84232E-02
    164.28      0.83457E-02
    164.66      0.82689E-02
    165.04      0.81929E-02
    165.42      0.81176E-02
    165.80      0.80430E-02
    166.18      0.79690E-02
    166.56      0.78957E-02
    166.94      0.78231E-02
    167.32      0.77512E-02
    167.70      0.76801E-02
    168.08      0.76095E-02
    168.46      0.75434E-02
    168.84      0.75106E-02
    169.22      0.74780E-02
    169.60      0.74457E-02
    169.98      0.74135E-02
    170.36      0.73815E-02
    170.74      0.73496E-02
    171.12      0.73180E-02
    171.50      0.72975E-02
    171.88      0.72778E-02
    172.26      0.72583E-02
    172.64      0.72388E-02
    173.02      0.72194E-02
    173.40      0.72001E-02
    173.78      0.71809E-02
    174.16      0.71617E-02
    174.54      0.71425E-02
    174.92      0.71235E-02
    175.30      0.71045E-02
    175.68      0.70856E-02
    176.06      0.70667E-02
    176.44      0.70480E-02
    176.82      0.70294E-02
    177.20      0.70109E-02
    177.58      0.69925E-02
    177.96      0.69741E-02
    178.34      0.69559E-02
    178.72      0.69377E-02
    179.10      0.69196E-02
    179.48      0.69016E-02
    179.86      0.68836E-02
    180.24      0.68657E-02
    180.62      0.68478E-02
    181.00      0.68301E-02
    181.38      0.68124E-02
    181.76      0.67947E-02
    182.14      0.67772E-02
    182.52      0.67597E-02
    182.90      0.67423E-02
    183.28      0.67250E-02
    183.66      0.67078E-02
    184.04      0.66906E-02
    184.42      0.66735E-02
    184.80      0.66565E-02
    185.18      0.66395E-02
    185.56      0.66226E-02
    185.94      0.66058E-02
    186.32      0.65891E-02
    186.70      0.65724E-02
    187.08      0.65558E-02
    187.46      0.65393E-02
    187.84      0.65228E-02
    188.22      0.65064E-02
    188.60      0.64920E-02
    188.98      0.64805E-02
    189.36      0.64690E-02
    189.74      0.64575E-02
    190.12      0.64461E-02
    190.50      0.64347E-02
    190.88      0.64233E-02
    191.26      0.64120E-02
    191.64      0.64025E-02
    192.02      0.63956E-02
    192.40      0.63888E-02
    192.78      0.63819E-02
    193.16      0.63751E-02
    193.54      0.63683E-02
    193.92      0.63615E-02
    194.30      0.63547E-02
    194.68      0.63480E-02
    195.06      0.63413E-02
    195.44      0.63345E-02
    195.82      0.63278E-02
    196.20      0.63211E-02
    196.58      0.63145E-02
    196.96      0.63078E-02
    197.34      0.63012E-02
    197.72      0.62946E-02
    198.10      0.62879E-02
    198.48      0.62813E-02
    198.86      0.62748E-02
    199.24      0.62682E-02
    199.62      0.62617E-02
    200.00      0.62551E-02